#Wave		#Intensity
4001.644531	82.985794
4000.500000	63.331264
3999.354492	69.869957
3998.209961	74.223213
3997.064453	61.113792
3995.918945	65.467049
3994.772461	54.545868
3993.626953	95.983116
3992.480469	23.991377
3991.333984	63.238388
3990.187500	74.127953
3989.040039	43.596676
3987.893555	52.306412
3986.746094	21.790339
3985.598633	98.038528
3984.451172	54.455853
3983.302734	54.445858
3982.154297	80.565079
3981.006836	60.956974
3979.857422	69.652321
3978.708984	39.172237
3977.560547	65.275078
3976.411133	32.631546
3975.261719	82.651405
3974.112305	78.286949
3972.961914	60.878666
3971.811523	71.736679
3970.662109	58.682865
3969.511719	36.941685
3968.360352	43.452824
3967.209961	54.306049
3966.058594	69.498970
3964.907227	49.943207
3963.755859	54.276123
3962.604492	71.631317
3961.452148	67.277657
3960.299805	67.265297
3959.147461	39.050091
3957.995117	62.902470
3956.841797	82.408775
3955.689453	26.019039
3954.536133	23.846403
3953.382813	101.870445
3952.228516	32.505867
3951.075195	47.666504
3949.920898	62.821564
3948.766602	45.483112
3947.612305	67.129395
3946.458008	28.145857
3945.302734	30.305349
3944.147461	62.763821
3942.992188	69.243889
3941.836914	80.048515
3940.680664	69.218414
3939.525391	41.090874
3938.369141	38.921032
3937.211914	51.885162
3936.055664	99.428261
3934.898438	77.799103
3933.742188	82.106163
3932.584961	64.808723
3931.426758	56.157223
3930.269531	66.944366
3929.111328	79.886627
3927.953125	45.332714
3926.794922	94.965340
3925.636719	84.158333
3924.477539	75.512802
3923.319336	49.613560
3922.160156	28.037283
3921.000000	43.126339
3919.840820	58.209835
3918.680664	71.132248
3917.520508	53.878143
3916.360352	56.022945
3915.200195	99.099258
3914.040039	81.849525
3912.878906	40.917225
3911.717773	86.125648
3910.556641	71.040573
3909.394531	49.504002
3908.233398	66.710487
3907.071289	88.213737
3905.909180	70.988220
3904.746094	66.673607
3903.583984	94.616066
3902.420898	70.948967
3901.257813	66.636749
3900.094727	66.624458
3898.931641	60.165836
3897.767578	60.154743
3896.603516	66.587616
3895.439453	42.951828
3894.275391	42.943909
3893.111328	55.816784
3891.946289	70.831314
3890.781250	51.504181
3889.616211	51.494682
3888.451172	68.646912
3887.285156	60.054966
3886.119141	57.899460
3884.953125	25.728346
3883.787109	21.436331
3882.620117	66.440369
3881.454102	79.285156
3880.287109	70.700737
3879.120117	74.971794
3877.952148	44.974773
3876.785156	64.237816
3875.617188	49.239902
3874.449219	62.073631
3873.281250	72.762543
3872.112305	59.911034
3870.944336	55.621403
3869.775391	79.138916
3868.606445	87.678284
3867.436523	49.176292
3866.267578	76.957375
3865.097656	87.629707
3863.927734	76.928947
3862.757813	51.276493
3861.587891	42.722515
3860.416992	42.714622
3859.246094	81.142792
3858.075195	72.588028
3856.904297	72.574615
3855.732422	76.829514
3854.560547	81.082832
3853.388672	81.067848
3852.216797	49.058311
3851.044922	59.712124
3849.872070	66.097633
3848.699219	55.426476
3847.526367	53.284832
3846.353516	78.846977
3845.179688	70.309975
3844.005859	76.687607
3842.832031	51.115620
3841.658203	55.365013
3840.484375	53.225742
3839.309570	44.701355
3838.134766	59.590782
3836.959961	72.346855
3835.785156	70.206017
3834.609375	93.590698
3833.434570	78.686714
3832.258789	80.798424
3831.082031	53.147026
3829.906250	82.894012
3828.729492	74.378296
3827.552734	67.990433
3826.375977	63.729233
3825.199219	48.850037
3824.021484	48.840992
3822.844727	65.816978
3821.666992	74.295738
3820.489258	63.670269
3819.310547	65.780434
3818.131836	38.188015
3816.954102	59.392582
3815.774414	97.555458
3814.595703	82.694748
3813.416992	42.399708
3812.237305	72.066154
3811.057617	59.337605
3809.877930	101.702766
3808.697266	72.026115
3807.516602	69.894745
3806.336914	71.999428
3805.155273	65.634369
3803.974609	65.622208
3802.792969	52.911331
3801.612305	44.437283
3800.430664	61.354397
3799.248047	23.268044
3798.066406	103.629349
3796.883789	42.289852
3795.701172	71.879425
3794.518555	73.979805
3793.335938	54.946239
3792.152344	61.274826
3790.968750	67.601067
3789.785156	76.037094
3788.601563	65.464241
3787.417969	67.563461
3786.233398	61.218029
3785.048828	61.206676
3783.864258	86.517525
3782.678711	42.195843
3781.494141	65.391418
3780.308594	78.033348
3779.123047	75.910248
3777.937500	59.030350
3776.750977	48.480217
3775.564453	67.438225
3774.377930	71.639809
3773.191406	75.839844
3772.004883	84.250847
3770.817383	54.752888
3769.629883	33.687828
3768.442383	58.942757
3767.254883	63.141232
3766.066406	56.816555
3764.878906	75.741341
3763.690430	65.209602
3762.500977	69.403778
3761.312500	42.055084
3760.123047	46.252003
3758.933594	75.671036
3757.744141	58.844318
3756.554688	60.934582
3755.364258	56.721657
3754.173828	102.920181
3752.983398	75.600777
3751.792969	54.590416
3750.602539	37.786343
3749.411133	88.151749
3748.219727	33.575378
3747.028320	54.549847
3745.835938	69.223473
3744.644531	50.334988
3743.452148	75.488449
3742.259766	96.439529
3741.067383	85.940994
3739.874023	52.393299
3738.680664	79.623009
3737.487305	62.848583
3736.293945	60.742332
3735.100586	79.578598
3733.906250	58.625957
3732.711914	41.867893
3731.517578	89.999229
3730.323242	60.685863
3729.127930	58.582348
3727.932617	46.020424
3726.737305	85.749382
3725.541992	60.640717
3724.345703	45.994740
3723.150391	66.888992
3721.954102	60.606869
3720.757813	60.595589
3719.560547	56.406082
3718.364258	64.750481
3717.166992	83.533463
3715.969727	52.198692
3714.771484	52.188976
3713.574219	70.963791
3712.375977	58.429890
3711.177734	39.641472
3709.979492	25.032055
3708.780273	64.654099
3707.582031	41.704556
3706.382813	47.951305
3705.183594	93.800301
3703.983398	70.858131
3702.784180	68.761261
3701.583984	70.831734
3700.383789	45.823761
3699.182617	39.567692
3697.982422	35.396076
3696.781250	56.206821
3695.580078	39.545578
3694.378906	58.266830
3693.177734	47.853119
3691.975586	68.646027
3690.773438	87.351379
3689.571289	89.414505
3688.369141	56.133526
3687.166016	56.123058
3685.962891	47.799618
3684.759766	66.491417
3683.556641	54.014202
3682.352539	60.235374
3681.149414	64.377525
3679.945313	60.212906
3678.740234	78.884956
3677.536133	20.755327
3676.331055	43.578056
3675.126953	62.242748
3673.920898	43.561794
3672.715820	76.737411
3671.510742	49.766335
3670.304688	64.269516
3669.098633	64.257523
3667.891602	68.390404
3666.685547	66.305588
3665.478516	55.934898
3664.271484	24.855314
3663.064453	37.276012
3661.857422	74.538109
3660.649414	51.752911
3659.441406	66.231354
3658.233398	18.624090
3657.025391	16.551657
3655.816406	68.262833
3654.607422	33.090950
3653.398438	62.033939
3652.189453	64.089767
3650.980469	74.412918
3649.770508	37.199509
3648.560547	45.457573
3647.350586	72.305359
3646.139648	76.422806
3644.929688	41.301907
3643.718750	66.070702
3642.507813	35.093502
3641.295898	55.726322
3640.084961	80.478531
3638.873047	74.273987
3637.661133	66.008980
3636.449219	63.934246
3635.236328	47.426216
3634.023438	41.232479
3632.810547	49.469723
3631.597656	68.008148
3630.384766	80.358238
3629.170898	28.841152
3627.957031	49.432728
3626.743164	90.609718
3625.529297	47.355312
3624.314453	80.283119
3623.099609	32.930504
3621.884766	65.848686
3620.669922	65.836365
3619.454102	65.824043
3618.239258	65.811729
3617.023438	45.237095
3615.806641	49.340324
3614.590820	80.163017
3613.374023	71.927704
3612.157227	43.148544
3610.940430	55.466316
3609.723633	57.509857
3608.505859	98.569870
3607.288086	43.116245
3606.070313	51.319252
3604.852539	82.095428
3603.633789	49.248032
3602.415039	57.445278
3601.196289	82.049309
3599.977539	73.830551
3598.758789	49.211147
3597.539063	61.502411
3596.319336	65.590279
3595.099609	61.479370
3593.878906	75.810349
3592.659180	47.116520
3591.438477	51.204014
3590.217773	77.815514
3588.996094	36.853073
3587.775391	81.880371
3586.553711	65.492020
3585.332031	57.294773
3584.109375	71.605042
3582.887695	34.773071
3581.665039	51.127281
3580.442383	69.520065
3579.219727	73.595680
3577.996094	77.669762
3576.773438	34.740482
3575.549805	53.122540
3574.325195	69.454910
3573.101563	79.653923
3571.876953	75.554932
3570.652344	53.082695
3569.427734	95.939178
3568.203125	63.267159
3566.977539	59.174301
3565.752930	42.842316
3564.526367	71.390457
3563.300781	61.180340
3562.075195	50.974049
3560.848633	44.848743
3559.622070	77.451469
3558.395508	59.096607
3557.167969	36.673767
3555.940430	52.963272
3554.712891	77.393326
3553.485352	46.834534
3552.257813	63.112953
3551.029297	65.136620
3549.800781	50.878429
3548.572266	71.216423
3547.343750	75.271797
3546.114258	61.019722
3544.884766	65.075478
3543.655273	73.196159
3542.425781	65.051025
3541.195313	28.454477
3539.965820	65.026588
3538.734375	50.792473
3537.503906	65.002151
3536.273438	83.268349
3535.041992	67.008270
3533.810547	64.965508
3532.579102	71.042664
3531.346680	56.823448
3530.115234	44.638603
3528.882813	60.859379
3527.650391	62.876198
3526.416992	46.641312
3525.184570	50.687546
3523.951172	36.488171
3522.717773	64.855659
3521.483398	70.922531
3520.250000	76.987122
3519.015625	50.639896
3517.781250	42.529510
3516.545898	58.720181
3515.311523	87.051476
3514.076172	62.746231
3512.840820	58.687042
3511.605469	78.909103
3510.369141	70.802536
3509.133789	68.766663
3507.897461	84.931061
3506.660156	78.849716
3505.423828	54.577988
3504.186523	82.862083
3502.949219	36.371628
3501.711914	92.932213
3500.474609	66.656212
3499.236328	82.799698
3497.998047	111.051849
3496.759766	92.862236
3495.521484	74.679474
3494.282227	60.539520
3493.042969	50.440098
3491.803711	68.585609
3490.564453	80.673752
3489.324219	58.477451
3488.084961	84.675522
3486.844727	74.581047
3485.603516	60.459724
3484.363281	56.418446
3483.122070	80.582588
3481.880859	94.666695
3480.639648	42.289913
3479.397461	70.469902
3478.156250	54.352249
3476.914063	40.253334
3475.671875	62.380905
3474.428711	66.392960
3473.186523	48.276684
3471.943359	42.234135
3470.700195	82.441566
3469.456055	54.280548
3468.212891	72.360413
3466.968750	52.250443
3465.724609	102.471924
3464.479492	64.283981
3463.235352	68.288841
3461.990234	62.251610
3460.745117	70.270813
3459.499023	34.125099
3458.253906	48.167519
3457.007813	46.151825
3455.761719	70.217781
3454.515625	94.274658
3453.268555	42.114769
3452.021484	48.122078
3450.775391	62.145950
3449.527344	60.129887
3448.280273	64.126434
3447.032227	86.153633
3445.784180	82.130974
3444.536133	62.087299
3443.287109	72.087769
3442.039063	64.065910
3440.790039	84.070625
3439.541016	64.041710
3438.291016	64.029617
3437.041992	92.025185
3435.791992	48.004066
3434.541992	75.992081
3433.291016	87.974205
3432.041016	59.971077
3430.790039	59.959743
3429.539063	71.938095
3428.287109	59.937080
3427.036133	63.920803
3425.784180	45.934391
3424.532227	55.909557
3423.280273	45.917027
3422.027344	79.840599
3420.774414	73.838593
3419.521484	33.919422
3418.268555	65.831139
3417.014648	57.840664
3415.761719	71.788620
3414.507813	51.837532
3413.252930	39.867481
3411.999023	93.670860
3410.744141	67.749084
3409.489258	75.705238
3408.234375	47.804787
3406.978516	71.693611
3405.723633	63.715595
3404.467773	57.731331
3403.210938	71.652916
3401.955078	67.659393
3400.698242	53.719349
3399.441406	45.752262
3398.184570	67.620979
3396.927734	49.711895
3395.669922	49.702480
3394.412109	71.558022
3393.154297	67.569778
3391.896484	53.648193
3390.637695	63.571003
3389.378906	87.393578
3388.120117	73.476135
3386.861328	71.476746
3385.601563	65.507942
3384.341797	61.526108
3383.082031	47.624088
3381.822266	31.743378
3380.561523	55.540386
3379.300781	47.597023
3378.040039	63.450672
3376.779297	49.561443
3375.517578	43.605804
3374.256836	55.487778
3372.995117	41.607944
3371.732422	79.238205
3370.470703	53.475647
3369.208008	69.307144
3367.945313	59.394855
3366.682617	79.178123
3365.418945	63.330490
3364.155273	92.999016
3362.891602	59.349815
3361.627930	81.096031
3360.363281	49.439419
3359.099609	39.544033
3357.834961	35.582878
3356.569336	79.058060
3355.304688	25.688995
3354.039063	47.416840
3352.773438	45.432514
3351.507813	57.273602
3350.241211	51.339005
3348.975586	78.968094
3347.708984	61.188652
3346.442383	69.070854
3345.174805	71.030815
3343.907227	45.372185
3342.639648	106.505775
3341.372070	92.681870
3340.104492	57.175827
3338.835938	41.395321
3337.567383	57.154114
3336.298828	80.788742
3335.029297	43.341824
3333.760742	65.000389
3332.491211	29.540018
3331.221680	64.975693
3329.951172	55.120419
3328.681641	49.205307
3327.411133	45.260281
3326.139648	35.414360
3324.869141	66.881081
3323.597656	66.868370
3322.327148	80.620056
3321.054688	49.149227
3319.783203	80.589409
3318.510742	55.026211
3317.238281	43.226658
3315.965820	51.076340
3314.693359	74.635841
3313.419922	64.803009
3312.146484	66.754044
3310.873047	74.593269
3309.599609	56.915615
3308.325195	47.093620
3307.050781	80.436295
3305.776367	54.921658
3304.501953	54.911209
3303.226563	35.293346
3301.951172	78.414734
3300.675781	64.679848
3299.400391	60.748295
3298.124023	68.573730
3296.847656	66.601807
3295.571289	54.838108
3294.294922	86.157768
3293.017578	39.155167
3291.740234	68.508499
3290.462891	43.054283
3289.185547	58.699211
3287.907227	35.212818
3286.628906	58.676857
3285.350586	54.754639
3284.072266	82.116318
3282.792969	68.417229
3281.513672	72.313011
3280.234375	70.345200
3278.955078	48.841530
3277.674805	83.991425
3276.394531	56.634590
3275.114258	54.671253
3273.833984	54.660835
3272.552734	40.987816
3271.272461	66.348579
3269.990234	87.797554
3268.708984	52.668495
3267.426758	54.608768
3266.145508	46.798592
3264.862305	60.436657
3263.580078	50.679146
3262.296875	54.567135
3261.014648	50.659824
3259.731445	89.611824
3258.447266	62.326775
3257.164063	54.525524
3255.879883	68.143906
3254.595703	79.810493
3253.310547	66.171692
3252.026367	91.455177
3250.741211	25.291286
3249.456055	44.737587
3248.169922	56.397499
3246.884766	36.943035
3245.598633	69.983971
3244.312500	50.534332
3243.025391	73.843773
3241.739258	54.400818
3240.452148	50.505402
3239.165039	69.917206
3237.876953	69.903862
3236.589844	69.890511
3235.301758	54.348907
3234.013672	65.982506
3232.724609	67.910194
3231.436523	29.098810
3230.147461	65.944710
3228.857422	79.506371
3227.568359	83.368805
3226.278320	40.707218
3224.989258	50.389786
3223.698242	62.006348
3222.408203	65.869156
3221.117188	75.541367
3219.826172	38.731758
3218.535156	13.553525
3217.244141	94.856537
3215.952148	67.741722
3214.660156	71.598991
3213.368164	85.128471
3212.076172	65.768517
3210.783203	81.227928
3209.490234	46.407085
3208.197266	36.731918
3206.903320	54.120895
3205.610352	63.773144
3204.316406	67.625244
3203.022461	52.158070
3201.727539	71.462204
3200.432617	50.207077
3199.137695	63.712177
3197.842773	52.118172
3196.547852	69.477600
3195.251953	42.450409
3193.956055	94.530548
3192.660156	82.939507
3191.363281	53.996784
3190.067383	55.914536
3188.770508	63.614708
3187.472656	61.675182
3186.175781	88.641106
3184.877930	52.018513
3183.580078	69.344742
3182.282227	40.443352
3180.983398	78.945709
3179.684570	42.353001
3178.385742	50.043961
3177.086914	25.017189
3175.788086	80.809280
3174.488281	53.862537
3173.188477	94.241379
3171.887695	51.918976
3170.587891	88.437607
3169.287109	88.420662
3167.986328	46.123680
3166.685547	90.308235
3165.383789	67.237923
3164.082031	69.145752
3162.780273	65.291801
3161.478516	63.359310
3160.175781	65.266777
3158.873047	84.446693
3157.570313	70.998383
3156.267578	72.903275
3154.963867	84.398132
3153.660156	53.697605
3152.356445	70.943939
3151.052734	69.013298
3149.748047	88.166748
3148.443359	57.489025
3147.138672	76.637329
3145.833984	59.382534
3144.528320	45.964756
3143.222656	89.997047
3141.916992	51.690510
3140.610352	66.993355
3139.304688	74.635414
3137.998047	53.574120
3136.691406	91.823723
3135.383789	49.728302
3134.076172	57.367794
3132.768555	49.709213
3131.460938	64.991875
3130.153320	51.601284
3128.844727	78.342461
3127.536133	55.402321
3126.227539	84.042549
3124.917969	80.207031
3123.608398	70.645004
3122.298828	36.270195
3120.989258	62.983501
3119.678711	82.053650
3118.369141	32.433582
3117.057617	72.484665
3115.747070	41.956745
3114.436523	70.550056
3113.125000	64.817322
3111.813477	97.207298
3110.500977	51.452797
3109.189453	64.779961
3107.876953	51.433022
3106.564453	68.564178
3105.250977	60.934219
3103.937500	85.672272
3102.625000	62.814255
3101.310547	58.995983
3099.997070	60.887367
3098.682617	72.289848
3097.368164	79.883934
3096.053711	39.934284
3094.739258	87.458275
3093.423828	64.630638
3092.108398	64.618210
3090.792969	70.306282
3089.476563	53.194519
3088.160156	39.888214
3086.843750	74.063850
3085.527344	58.859940
3084.210938	53.153584
3082.893555	45.551445
3081.576172	49.337902
3080.257813	51.225651
3078.940430	73.978363
3077.622070	41.723351
3076.303711	39.819164
3074.984375	54.977783
3073.666016	60.653458
3072.346680	53.061558
3071.027344	24.630978
3069.707031	51.146793
3068.387695	64.394669
3067.067383	66.275856
3065.747070	34.078163
3064.425781	34.071598
3063.104492	70.022568
3061.783203	66.224800
3060.461914	69.995583
3059.140625	30.262527
3057.818359	69.968605
3056.496094	64.283089
3055.173828	68.051323
3053.850586	62.368355
3052.527344	64.245918
3051.204102	58.565868
3049.880859	50.999146
3048.556641	64.208763
3047.233398	41.538837
3045.909180	73.622826
3044.583984	64.171623
3043.259766	39.627773
3041.934570	73.580238
3040.608398	79.224968
3039.283203	88.639412
3037.957031	47.139526
3036.630859	77.293907
3035.304688	58.430462
3033.978516	86.686531
3032.651367	65.944420
3031.324219	73.466743
3029.997070	65.918968
3028.668945	52.724995
3027.341797	64.010849
3026.013672	48.940022
3024.684570	54.576408
3023.356445	45.157963
3022.027344	58.317772
3020.698242	78.995918
3019.368164	62.056236
3018.039063	67.684639
3016.708984	78.950157
3015.378906	48.864468
3014.047852	60.129269
3012.717773	69.511032
3011.386719	116.455452
3010.055664	76.995979
3008.723633	26.286230
3007.392578	73.211777
3006.060547	71.320770
3004.727539	86.318985
3003.395508	50.655697
3002.062500	50.645908
3000.729492	67.514824
2999.396484	80.627113
2998.062500	48.741856
2996.728516	86.218918
2995.394531	86.202248
2994.060547	67.449577
2992.725586	82.422432
2991.390625	59.931995
2990.055664	80.518044
2988.720703	74.886017
2987.384766	56.153648
2986.048828	72.985626
2984.712891	24.323833
2983.376953	72.957382
2982.040039	52.369526
2980.703125	93.498917
2979.366211	86.002357
2978.028320	69.162422
2976.690430	65.411247
2975.352539	71.004181
2974.014648	70.990440
2972.675781	69.108887
2971.336914	74.697845
2969.998047	87.752975
2968.659180	48.534801
2967.319336	69.055382
2965.979492	48.516003
2964.639648	78.356827
2963.299805	69.015266
2961.958984	74.596649
2960.618164	78.311310
2959.277344	68.975166
2957.935547	46.595814
2956.593750	70.811913
2955.251953	48.440868
2953.910156	57.745232
2952.567383	33.522991
2951.225586	74.481094
2949.881836	52.126663
2948.539063	42.810032
2947.195313	74.437798
2945.852539	65.120445
2944.507813	78.129387
2943.164063	59.515610
2941.819336	57.644566
2940.474609	79.943085
2939.129883	59.480991
2937.784180	85.487343
2936.439453	61.315983
2935.093750	50.157890
2933.747070	39.004128
2932.401367	72.422180
2931.054688	72.408134
2929.708008	85.387894
2928.360352	83.515427
2927.013672	63.088299
2925.666016	63.076057
2924.318359	59.354179
2922.969727	68.614952
2921.621094	68.601631
2920.272461	57.465885
2918.923828	66.721619
2917.575195	66.708664
2916.225586	44.463810
2914.875977	75.944260
2913.525391	79.633392
2912.175781	51.844231
2910.825195	51.834164
2909.474609	55.525818
2908.123047	74.020042
2906.772461	38.852974
2905.420898	86.939758
2904.069336	81.374603
2902.716797	53.622841
2901.364258	48.066307
2900.011719	57.298691
2898.659180	70.223457
2897.305664	75.752686
2895.953125	60.959824
2894.599609	73.876335
2893.245117	49.856831
2891.891602	44.308567
2890.537109	62.758270
2889.181641	44.291340
2887.827148	64.578979
2886.471680	35.050343
2885.116211	62.709469
2883.760742	62.697273
2882.405273	77.434509
2881.048828	77.419449
2879.692383	51.602924
2878.334961	73.704124
2876.978516	62.636314
2875.621094	49.730923
2874.263672	66.294998
2872.905273	36.823387
2871.547852	64.428383
2870.189453	64.415848
2868.830078	82.804253
2867.471680	57.031826
2866.112305	62.538860
2864.752930	104.824142
2863.393555	55.159863
2862.033203	44.119297
2860.672852	69.841949
2859.312500	67.990761
2857.952148	51.442448
2856.590820	78.985519
2855.229492	64.278015
2853.868164	51.412395
2852.505859	58.745575
2851.144531	51.392365
2849.782227	77.073532
2848.418945	58.711246
2847.056641	67.871651
2845.693359	78.862495
2844.330078	49.508659
2842.965820	45.832417
2841.602539	64.152878
2840.238281	53.144878
2838.874023	73.288994
2837.508789	42.132954
2836.143555	53.113800
2834.778320	51.272293
2833.413086	60.416275
2832.046875	51.252296
2830.681641	84.183777
2829.314453	53.062031
2827.948242	89.639046
2826.581055	42.067265
2825.214844	76.803497
2823.846680	62.162128
2822.479492	63.977940
2821.111328	49.344780
2819.743164	60.298519
2818.375000	62.113625
2817.005859	62.101501
2815.636719	73.046326
2814.267578	63.903061
2812.898438	83.970490
2811.528320	63.878113
2810.158203	41.968849
2808.788086	45.609409
2807.416992	45.600502
2806.046875	69.299232
2804.675781	72.932312
2803.303711	83.855774
2801.932617	61.968250
2800.560547	51.022709
2799.188477	43.725208
2797.815430	43.716663
2796.443359	61.919842
2795.070313	83.757538
2793.696289	69.177490
2792.323242	70.984070
2790.949219	63.691204
2789.575195	49.123611
2788.201172	78.218613
2786.826172	67.291229
2785.451172	72.733055
2784.076172	65.446953
2782.701172	69.069382
2781.325195	90.862999
2779.949219	41.788807
2778.573242	54.496479
2777.196289	76.280151
2775.819336	78.081070
2774.442383	59.910961
2773.065430	49.008469
2771.687500	34.480694
2770.309570	96.164169
2768.931641	72.562531
2767.553711	67.107208
2766.174805	58.027309
2764.795898	70.706947
2763.416992	72.505753
2762.037109	52.556381
2760.657227	70.665436
2759.277344	70.651604
2757.897461	65.204094
2756.516602	52.515236
2755.135742	90.525787
2753.754883	34.393063
2752.373047	56.104008
2750.991211	52.474117
2749.609375	54.272938
2748.227539	56.071049
2746.844727	56.060066
2745.461914	70.513367
2744.079102	37.961296
2742.696289	68.678406
2741.312500	45.174313
2739.928711	50.585312
2738.544922	68.638046
2737.160156	52.371399
2735.775391	50.555576
2734.390625	57.766479
2733.005859	57.755154
2731.620117	83.006760
2730.234375	68.557358
2728.848633	101.012085
2727.461914	50.496140
2726.076172	46.880077
2724.689453	37.857254
2723.301758	46.861691
2721.915039	64.872696
2720.527344	63.058300
2719.138672	61.244617
2717.750977	79.242195
2716.362305	48.616352
2714.973633	48.606812
2713.584961	93.594749
2712.195313	62.984104
2710.806641	77.365288
2709.416016	53.965187
2708.026367	61.148540
2706.635742	77.319740
2705.245117	59.326756
2703.854492	53.922825
2702.462891	46.723938
2701.072266	37.731155
2699.680664	70.058388
2698.288086	73.636665
2696.896484	52.074238
2695.503906	70.017120
2694.110352	50.258827
2692.717773	46.659744
2691.324219	59.210346
2689.930664	64.580414
2688.537109	60.980633
2687.142578	80.693802
2685.748047	60.956669
2684.353516	51.982235
2682.958984	10.752831
2681.563477	60.920734
2680.167969	64.491631
2678.771484	62.687866
2677.375977	87.745758
2675.979492	46.549820
2674.583008	34.010487
2673.185547	71.586952
2671.789063	73.362190
2670.391602	67.980858
2668.993164	57.235775
2667.595703	98.354645
2666.197266	96.547379
2664.798828	60.777134
2663.400391	83.998917
2662.000977	44.671486
2660.601563	78.606346
2659.202148	51.798531
2657.801758	51.788338
2656.401367	67.847221
2655.000977	64.263664
2653.600586	58.896767
2652.199219	73.160362
2650.797852	76.714058
2649.396484	41.025021
2647.995117	73.117165
2646.592773	71.319771
2645.190430	83.784225
2643.787109	74.856270
2642.384766	87.315109
2640.981445	76.608376
2639.578125	51.655933
2638.173828	55.207535
2636.769531	73.002029
2635.365234	56.965969
2633.960938	90.771622
2632.555664	76.517860
2631.150391	48.036629
2629.745117	62.257431
2628.339844	55.131428
2626.933594	78.235634
2625.527344	74.664749
2624.121094	53.321449
2622.713867	46.202812
2621.306641	99.494125
2619.899414	58.618904
2618.492188	60.383327
2617.083984	46.166378
2615.675781	90.539268
2614.266602	60.347607
2612.858398	76.306915
2611.449219	56.775341
2610.040039	60.311897
2608.629883	56.752941
2607.220703	60.288101
2605.810547	60.276203
2604.399414	60.264309
2602.989258	49.619637
2601.578125	65.555862
2600.166992	46.057190
2598.754883	61.987823
2597.343750	47.809738
2595.930664	83.207932
2594.518555	61.951115
2593.106445	44.242062
2591.693359	65.465317
2590.280273	67.221375
2588.866211	77.819901
2587.452148	67.194824
2586.038086	70.717422
2584.624023	40.654484
2583.208984	63.620533
2581.794922	72.442406
2580.378906	63.595394
2578.963867	45.920933
2577.547852	60.038582
2576.131836	60.026718
2574.715820	31.772570
2573.298828	54.708607
2571.881836	84.693359
2570.464844	75.856133
2569.047852	74.077393
2567.629883	56.428757
2566.211914	65.232849
2564.793945	79.321556
2563.375000	68.731758
2561.956055	51.098122
2560.537109	56.372982
2559.118164	42.271370
2557.698242	81.004105
2556.278320	65.142586
2554.857422	70.410477
2553.437500	70.396545
2552.016602	56.306095
2550.595703	38.702778
2549.173828	79.149109
2547.752930	68.582314
2546.330078	59.777878
2544.908203	66.797340
2543.485352	38.664490
2542.063477	43.928223
2540.639648	77.298363
2539.216797	57.962292
2537.792969	77.267754
2536.369141	93.054085
2534.945313	61.438641
2533.520508	50.896221
2532.095703	59.659611
2530.670898	82.454300
2529.245117	50.865978
2527.819336	66.638763
2526.393555	52.599129
2524.967773	54.341663
2523.541016	24.536531
2522.114258	73.595009
2520.687500	56.061272
2519.260742	80.572105
2517.833008	96.317116
2516.405273	61.280560
2514.976563	59.517883
2513.547852	68.256981
2512.119141	76.992599
2510.690430	64.730942
2509.261719	38.481033
2507.832031	66.454056
2506.402344	50.704880
2504.971680	64.679596
2503.541016	76.901024
2502.110352	68.148743
2500.679688	62.894054
2499.248047	89.082230
2497.816406	61.122730
2496.384766	94.284927
2494.953125	61.098473
2493.520508	71.558289
2492.087891	83.758934
2490.655273	69.785255
2489.221680	54.072834
2487.788086	54.062099
2486.354492	61.025734
2484.919922	64.500107
2483.485352	80.173401
2482.050781	60.989384
2480.616211	69.688309
2479.180664	73.158188
2477.745117	40.054859
2476.309570	71.387955
2474.873047	62.669655
2473.437500	40.030991
2472.000000	69.605278
2470.563477	53.933372
2469.125977	48.704334
2467.688477	43.477367
2466.250977	76.504959
2464.812500	66.059334
2463.374023	52.141735
2461.935547	69.508492
2460.497070	83.393608
2459.057617	76.428940
2457.618164	67.730362
2456.177734	69.453224
2454.738281	55.551529
2453.297852	59.011761
2451.857422	62.470612
2450.416016	52.048485
2448.974609	79.791801
2447.533203	64.167595
2446.091797	76.292229
2444.649414	45.072800
2443.207031	45.063828
2441.764648	67.582291
2440.321289	22.522947
2438.877930	97.002609
2437.434570	55.419029
2435.990234	24.240999
2434.546875	83.095451
2433.101563	65.770798
2431.657227	55.374908
2430.211914	62.284367
2428.766602	51.893303
2427.321289	62.259560
2425.875977	79.538033
2424.429688	65.692245
2422.983398	72.592758
2421.536133	34.561092
2420.089844	77.746964
2418.642578	60.457809
2417.194336	56.991718
2415.747070	31.080198
2414.298828	105.306343
2412.849609	60.409630
2411.401367	75.928398
2409.952148	82.814468
2408.502930	75.898125
2407.052734	60.361473
2405.603516	31.036854
2404.152344	75.852737
2402.703125	70.666862
2401.251953	63.759815
2399.800781	79.253151
2398.349609	63.734386
2396.898438	72.332710
2395.445313	49.934048
2393.994141	70.582329
2392.541016	49.914124
2391.087891	51.625000
2389.634766	73.981064
2388.181641	79.126740
2386.728516	67.072327
2385.275391	65.339478
2383.820313	61.888203
2382.365234	75.626038
2380.910156	48.116051
2379.455078	65.287315
2378.000000	73.862999
2376.544922	48.087234
2375.089844	89.287025
2373.632813	61.801750
2372.175781	68.654900
2370.718750	70.357208
2369.261719	51.470604
2367.804688	66.898415
2366.347656	66.885048
2364.888672	75.444977
2363.429688	58.286743
2361.972656	71.986885
2360.513672	90.822433
2359.054688	49.685360
2357.593750	71.943726
2356.134766	66.791534
2354.673828	53.080093
2353.214844	51.357563
2351.753906	58.193600
2350.292969	59.893196
2348.832031	71.857460
2347.369141	75.264191
2345.908203	68.408310
2344.445313	58.135429
2342.984375	85.476181
2341.521484	54.693810
2340.058594	73.480103
2338.593750	54.671928
2337.130859	58.077301
2335.667969	78.559448
2334.203125	70.006363
2332.738281	68.285217
2331.273438	56.324032
2329.808594	80.203018
2328.343750	81.893066
2326.878906	86.993965
2325.412109	80.154854
2323.945313	34.101620
2322.478516	46.027969
2321.011719	64.767128
2319.544922	47.713589
2318.078125	52.815178
2316.611328	78.355209
2315.142578	45.981892
2313.673828	69.810364
2312.205078	39.154064
2310.736328	52.762295
2309.267578	74.873413
2307.798828	81.663719
2306.328125	71.441429
2304.859375	57.821949
2303.388672	59.510662
2301.917969	49.298950
2300.447266	57.787182
2298.974609	98.558372
2297.503906	57.764011
2296.031250	93.423050
2294.560547	76.421707
2293.087891	57.729267
2291.615234	54.322529
2290.142578	33.944771
2288.667969	81.451111
2287.195313	76.345093
2285.720703	83.114647
2284.246094	62.747448
2282.773438	81.385757
2281.296875	45.770302
2279.822266	94.911949
2278.347656	81.336769
2276.871094	69.461212
2275.396484	79.610283
2273.919922	59.272354
2272.443359	66.033073
2270.966797	59.248554
2269.488281	69.391510
2268.011719	54.148354
2266.533203	40.603111
2265.056641	84.572823
2263.578125	71.026901
2262.099609	32.124763
2260.619141	55.784431
2259.140625	54.083126
2257.662109	59.141537
2256.181641	32.098953
2254.701172	54.050533
2253.220703	64.172104
2251.740234	55.717209
2250.259766	50.641827
2248.777344	77.635193
2247.296875	53.996235
2245.814453	48.924248
2244.332031	69.154861
2242.849609	47.218212
2241.367188	70.813072
2239.884766	74.170204
2238.400391	84.267372
2236.917969	64.030327
2235.433594	74.125465
2233.949219	58.951572
2232.464844	57.255722
2230.978516	60.611507
2229.494141	75.749138
2228.009766	58.904144
2226.523438	82.449203
2225.037109	60.562733
2223.550781	63.914463
2222.064453	63.901600
2220.576172	68.932579
2219.089844	63.875874
2217.601563	62.182407
2216.115234	60.489620
2214.626953	75.596802
2213.138672	65.504028
2211.648438	82.283363
2210.160156	57.083076
2208.669922	62.107307
2207.181641	67.129509
2205.691406	63.760185
2204.201172	97.298569
2202.710938	82.183952
2201.218750	41.922138
2199.728516	68.738457
2198.236328	48.610085
2196.744141	51.952030
2195.251953	40.212818
2193.759766	72.033447
2192.267578	92.117226
2190.775391	75.353447
2189.281250	61.944782
2187.787109	87.039978
2186.294922	55.225769
2184.800781	60.234146
2183.304688	68.586166
2181.810547	58.537354
2180.316406	50.164753
2178.820313	68.544662
2177.324219	58.501934
2175.828125	38.436371
2174.332031	95.236130
2172.835938	75.171249
2171.337891	56.784592
2169.841797	65.122116
2168.343750	73.456276
2166.845703	66.764954
2165.347656	48.394821
2163.849609	76.748703
2162.351563	70.060753
2160.851563	53.368843
2159.353516	96.711494
2157.853516	60.015701
2156.353516	43.335918
2154.853516	66.657173
2153.353516	61.645432
2151.851563	59.967224
2150.351563	74.943886
2148.849609	74.928741
2147.347656	74.913605
2145.845703	54.925541
2144.343750	59.906662
2142.839844	68.213242
2141.337891	73.189659
2139.833984	69.848732
2138.330078	68.171883
2136.826172	71.482887
2135.322266	73.130486
2133.818359	79.762581
2132.314453	66.455376
2130.808594	49.831455
2129.302734	66.428497
2127.796875	48.150921
2126.291016	59.761467
2124.785156	49.791145
2123.279297	56.418549
2121.771484	66.361336
2120.263672	87.910980
2118.757813	46.434135
2117.250000	66.321053
2115.740234	67.965324
2114.232422	49.720657
2112.724609	48.053574
2111.214844	53.013901
2109.705078	71.223007
2108.195313	49.680408
2106.685547	76.161201
2105.175781	48.004948
2103.664063	71.165337
2102.154297	95.971008
2100.642578	59.556145
2099.130859	59.544083
2097.619141	57.878353
2096.107422	52.906628
2094.595703	69.425880
2093.082031	71.064476
2091.570313	49.569820
2090.056641	46.255791
2088.542969	31.381495
2087.029297	82.566147
2085.513672	82.549408
2084.000000	56.122215
2082.484375	82.515938
2080.968750	47.849541
2079.455078	80.832832
2077.937500	61.024658
2076.421875	39.575535
2074.906250	59.351261
2073.388672	65.932472
2071.873047	75.806961
2070.355469	56.019863
2068.837891	59.303116
2067.320313	39.527390
2065.800781	55.985771
2064.283203	90.546844
2062.763672	44.441246
2061.244141	67.471161
2059.724609	54.295033
2058.205078	69.088737
2056.685547	69.074715
2055.164063	54.261971
2053.644531	41.099209
2052.123047	69.032646
2050.601563	67.375328
2049.080078	75.576485
2047.558594	65.705330
2046.035156	72.261185
2044.513672	75.530441
2042.990234	54.173870
2041.466797	86.988846
2039.943359	50.869930
2038.419922	63.984650
2036.896484	65.611946
2035.371094	67.238579
2033.847656	54.107853
2032.322266	68.850540
2030.796875	55.724823
2029.271484	62.268024
2027.744141	50.787273
2026.218750	67.156609
2024.691406	37.665558
2023.164063	50.756298
2021.636719	57.293842
2020.109375	62.192089
2018.582031	47.452732
2017.054688	53.986950
2015.525391	47.433426
2013.996094	62.141499
2012.468750	75.208618
2010.939453	80.097221
2009.408203	80.080925
2007.878906	68.626823
2006.347656	66.979218
2004.818359	47.365898
2003.287109	88.180618
2001.755859	58.775108
2000.224609	53.866215
1998.691406	71.806992
1997.160156	44.054409
1995.626953	60.358566
1994.093750	34.250587
1992.560547	55.442036
1991.027344	78.255165
1989.494141	53.789467
1987.960938	81.482590
1986.425781	50.508911
1984.890625	68.417488
1983.355469	43.973709
1981.820313	63.504635
1980.285156	66.747673
1978.750000	74.872375
1977.212891	69.975128
1975.675781	74.841850
1974.138672	84.586586
1972.601563	66.679672
1971.064453	71.544083
1969.527344	68.278152
1967.988281	58.512192
1966.451172	69.875313
1964.912109	66.611710
1963.373047	68.222466
1961.833984	69.832558
1960.292969	53.581497
1958.753906	58.440613
1957.212891	92.512093
1955.671875	81.134399
1954.130859	50.293060
1952.589844	71.369133
1951.048828	74.597954
1949.505859	66.475906
1947.964844	63.220272
1946.421875	71.310875
1944.878906	55.092606
1943.335938	48.601196
1941.792969	38.873016
1940.248047	77.730156
1938.705078	71.238091
1937.160156	53.417656
1935.615234	84.156082
1934.070313	66.340279
1932.525391	63.091274
1930.978516	56.608807
1929.433594	69.533752
1927.886719	71.136276
1926.339844	61.423317
1924.792969	66.258980
1923.246094	58.166729
1921.699219	67.847313
1920.150391	66.218361
1918.601563	67.819572
1917.052734	80.721077
1915.503906	54.879108
1913.955078	64.550453
1912.406250	56.470097
1910.855469	72.589561
1909.306641	56.446999
1907.755859	80.622070
1906.205078	58.036018
1904.654297	80.589088
1903.101563	70.903885
1901.550781	85.389481
1899.998047	67.653282
1898.447266	64.418510
1896.894531	57.964794
1895.339844	64.392143
1893.787109	82.083176
1892.234375	46.665192
1890.679688	80.440758
1889.125000	45.037601
1887.570313	56.285473
1886.015625	61.097427
1884.460938	73.944893
1882.906250	73.929749
1881.349609	70.700928
1879.792969	51.408325
1878.236328	77.096687
1876.679688	54.598965
1875.123047	69.037483
1873.566406	54.576591
1872.007813	75.428650
1870.449219	93.063087
1868.890625	48.126213
1867.332031	80.193909
1865.773438	60.934879
1864.214844	67.335266
1862.654297	88.159058
1861.093750	70.512787
1859.533203	72.100563
1857.972656	76.891495
1856.412109	81.680458
1854.851563	89.669945
1853.289063	76.844185
1851.728516	41.615395
1850.166016	72.011871
1848.603516	65.597351
1847.039063	76.781143
1845.476563	65.570435
1843.914063	94.338089
1842.349609	52.754539
1840.785156	54.342007
1839.220703	27.165426
1837.656250	79.881905
1836.091797	75.073578
1834.525391	57.491360
1832.958984	49.496281
1831.392578	67.045708
1829.826172	54.263950
1828.259766	35.104755
1826.693359	52.646317
1825.125000	87.725838
1823.558594	78.139687
1821.990234	55.802597
1820.421875	57.385162
1818.853516	65.341896
1817.285156	84.448990
1815.714844	82.838585
1814.144531	66.894333
1812.576172	55.733822
1811.005859	66.866837
1809.433594	62.077869
1807.863281	81.162064
1806.292969	68.416687
1804.720703	58.858067
1803.148438	68.388550
1801.576172	69.964584
1800.003906	71.539970
1798.431641	63.578007
1796.857422	66.743172
1795.285156	55.607868
1793.710938	69.892654
1792.136719	63.525700
1790.562500	50.810101
1788.986328	71.436996
1787.412109	57.137836
1785.835938	71.407593
1784.259766	42.835739
1782.683594	60.274921
1781.107422	58.676659
1779.531250	66.592224
1777.955078	44.385674
1776.376953	58.640415
1774.798828	57.043789
1773.220703	58.616264
1771.642578	72.859261
1770.064453	66.509972
1768.484375	94.994667
1766.906250	56.985058
1765.326172	82.294792
1763.746094	55.379311
1762.166016	56.949837
1760.583984	69.591011
1759.003906	39.532196
1757.421875	67.981361
1755.841797	66.386711
1754.259766	72.694267
1752.675781	55.299450
1751.093750	56.867706
1749.511719	44.221317
1747.927734	72.634323
1746.343750	72.619339
1744.759766	44.193958
1743.175781	55.231052
1741.591797	56.797363
1740.005859	58.363026
1738.421875	77.275627
1736.835938	48.878574
1735.250000	48.868484
1733.664063	53.586632
1732.076172	44.121059
1730.490234	58.290794
1728.902344	53.553455
1727.316406	78.738823
1725.728516	58.254700
1724.138672	64.539177
1722.550781	81.837662
1720.962891	69.232948
1719.373047	42.475082
1717.783203	40.893482
1716.193359	69.190056
1714.603516	70.747940
1713.013672	59.730362
1711.421875	78.576347
1709.830078	86.416122
1708.240234	59.693344
1706.648438	91.092064
1705.054688	69.090042
1703.462891	54.946629
1701.871094	67.491905
1700.277344	48.646893
1698.683594	43.930046
1697.089844	59.607021
1695.496094	34.502190
1693.902344	48.606670
1692.306641	67.408211
1690.710938	59.557728
1689.117188	48.576515
1687.521484	67.366386
1685.923828	54.821762
1684.328125	57.942444
1682.730469	84.547150
1681.134766	67.310654
1679.537109	56.341442
1677.939453	78.235809
1676.341797	59.446907
1674.742188	65.690872
1673.144531	57.858551
1671.544922	54.719730
1669.945313	28.135750
1668.345703	40.632111
1666.746094	64.060448
1665.144531	95.289703
1663.544922	56.224899
1661.943359	67.143608
1660.341797	65.568542
1658.740234	67.115791
1657.138672	59.299339
1655.535156	40.564827
1653.933594	45.236008
1652.330078	70.179260
1650.726563	59.250202
1649.123047	62.355705
1647.519531	32.729958
1645.914063	54.538624
1644.310547	54.527317
1642.705078	57.631210
1641.099609	59.176540
1639.494141	51.379494
1637.888672	87.171364
1636.281250	65.364960
1634.675781	52.903519
1633.068359	68.449173
1631.460938	49.770889
1629.853516	62.200706
1628.244141	55.969021
1626.636719	68.392387
1625.027344	51.283642
1623.417969	49.719273
1621.808594	51.262360
1620.199219	62.123295
1618.589844	46.582798
1616.978516	66.754814
1615.369141	37.250767
1613.757813	71.382477
1612.146484	57.404415
1610.535156	68.250534
1608.921875	69.787186
1607.310547	60.469666
1605.697266	65.107651
1604.083984	48.045662
1602.470703	55.783371
1600.857422	51.124130
1599.242188	54.211296
1597.628906	78.977188
1596.013672	72.767769
1594.398438	40.246147
1592.783203	43.332993
1591.167969	47.965843
1589.550781	55.690685
1587.935547	74.238808
1586.318359	61.852814
1584.701172	64.931946
1583.083984	54.098701
1581.466797	58.723518
1579.847656	47.896065
1578.230469	57.154377
1576.611328	37.065399
1574.992188	60.218739
1573.373047	58.662460
1571.751953	60.193684
1570.132813	60.181156
1568.511719	50.911919
1566.890625	66.325966
1565.269531	49.348583
1563.648438	53.963779
1562.027344	47.786537
1560.404297	43.153049
1558.783203	70.879532
1557.160156	30.810770
1555.537109	64.689140
1553.912109	63.135773
1552.289063	52.345589
1550.664063	49.256176
1549.041016	63.096325
1547.416016	52.312881
1545.791016	59.993450
1544.164063	50.753109
1542.539063	61.506100
1540.912109	66.105278
1539.287109	59.943455
1537.660156	67.614418
1536.033203	56.845726
1534.404297	66.050179
1532.777344	47.607643
1531.148438	55.274765
1529.519531	53.728149
1527.890625	62.925564
1526.261719	53.705742
1524.632813	46.023891
1523.001953	47.548100
1521.373047	64.406570
1519.742188	84.324341
1518.111328	30.656998
1516.478516	61.301201
1514.847656	64.352829
1513.214844	59.743729
1511.583984	70.452255
1509.951172	68.906296
1508.318359	42.866077
1506.683594	50.510189
1505.050781	41.317890
1503.416016	58.138962
1501.783203	56.597168
1500.148438	56.585346
1498.511719	64.218597
1496.876953	47.389542
1495.242188	90.174156
1493.605469	45.841690
1491.968750	54.998535
1490.332031	54.987041
1488.695313	53.448452
1487.058594	74.812195
1485.419922	59.531960
1483.781250	53.414951
1482.142578	54.929607
1480.503906	32.035572
1478.865234	53.381458
1477.226563	57.944893
1475.585938	50.310043
1473.945313	36.581470
1472.304688	74.671555
1470.664063	67.037979
1469.023438	45.698154
1467.380859	54.826313
1465.740234	65.473289
1464.097656	59.370323
1462.455078	51.747913
1460.812500	56.302124
1459.167969	47.162178
1457.525391	68.446899
1455.880859	44.100990
1454.236328	63.857029
1452.591797	57.763313
1450.947266	56.231449
1449.302734	65.336380
1447.656250	63.803570
1446.009766	68.346649
1444.363281	92.628281
1442.716797	45.545349
1441.070313	60.714413
1439.421875	62.219238
1437.775391	51.585632
1436.126953	66.743889
1434.478516	33.364952
1432.830078	45.488129
1431.179688	45.478596
1429.531250	69.719231
1427.880859	74.250572
1426.230469	63.630009
1424.580078	31.808334
1422.929688	54.517139
1421.279297	51.477615
1419.626953	68.117851
1417.974609	65.076744
1416.322266	72.628571
1414.669922	49.921669
1413.017578	46.886276
1411.363281	69.558586
1409.710938	68.032173
1408.056641	55.925827
1406.402344	52.891708
1404.748047	54.391483
1403.091797	31.721706
1401.437500	55.878895
1399.781250	63.416786
1398.125000	54.345833
1396.468750	49.806557
1394.812500	54.323017
1393.154297	37.716396
1391.498047	66.366920
1389.839844	67.861008
1388.181641	52.769695
1386.523438	81.399002
1384.865234	46.719242
1383.205078	81.364807
1381.544922	36.154541
1379.884766	57.232662
1378.224609	60.232246
1376.564453	39.142735
1374.904297	30.103466
1373.242188	37.621426
1371.580078	69.208870
1369.919922	40.614059
1368.255859	52.636787
1366.593750	58.640087
1364.931641	81.176895
1363.267578	36.071033
1361.603516	51.089886
1359.939453	58.590778
1358.275391	27.036209
1356.611328	70.579697
1354.945313	84.077271
1353.279297	75.053192
1351.613281	58.529175
1349.947266	64.518585
1348.281250	54.004196
1346.615234	50.993229
1344.947266	62.978374
1343.279297	50.971764
1341.611328	53.958740
1339.943359	47.953228
1338.275391	58.430691
1336.605469	41.941406
1334.935547	44.927757
1333.267578	53.901955
1331.597656	37.424030
1329.925781	47.892670
1328.255859	38.904598
1326.583984	50.864525
1324.912109	53.845207
1323.240234	53.833862
1321.568359	47.842239
1319.896484	44.842648
1318.224609	62.766476
1316.550781	61.259121
1314.876953	58.258587
1313.203125	43.311356
1311.529297	68.686287
1309.853516	71.657532
1308.179688	50.746716
1306.503906	61.181667
1304.828125	49.233395
1303.152344	73.088715
1301.474609	61.142960
1299.798828	47.711269
1298.121094	49.191864
1296.443359	64.084969
1294.765625	38.740875
1293.087891	64.057922
1291.410156	50.639763
1289.730469	44.672714
1288.050781	87.837791
1286.371094	47.630779
1284.691406	37.203690
1283.011719	50.586338
1281.332031	71.400925
1279.650391	65.437027
1277.968750	63.936317
1276.287109	53.516773
1274.605469	53.505470
1272.921875	74.297455
1271.240234	71.310493
1269.556641	71.295425
1267.873047	60.885307
1266.189453	69.780602
1264.505859	37.109497
1262.820313	32.649456
1261.134766	45.996330
1259.451172	45.986607
1257.765625	53.392513
1256.078125	54.864037
1254.392578	54.852436
1252.705078	71.144867
1251.019531	56.311111
1249.332031	74.077896
1247.642578	56.287296
1245.955078	50.351665
1244.267578	45.899158
1242.578125	31.086401
1240.888672	73.999580
1239.199219	50.309067
1237.509766	44.380959
1235.818359	54.724934
1234.128906	56.192089
1232.437500	53.223343
1230.746094	50.255852
1229.054688	67.978813
1227.363281	60.576984
1225.669922	35.452190
1223.976563	60.551334
1222.283203	56.108864
1220.589844	47.239563
1218.896484	57.561024
1217.203125	39.841499
1215.507813	61.962536
1213.812500	54.574478
1212.117188	53.088242
1210.421875	56.025715
1208.726563	54.539791
1207.029297	42.738346
1205.332031	61.883793
1203.636719	66.290009
1201.937500	58.911964
1200.240234	48.592064
1198.542969	52.998287
1196.843750	67.705673
1195.144531	52.975811
1193.445313	47.079624
1191.746094	58.837048
1190.046875	63.236412
1188.345703	55.871487
1186.644531	47.039692
1184.943359	52.908424
1183.242188	22.040499
1181.541016	58.762192
1179.837891	54.343494
1178.136719	29.368626
1176.433594	36.702991
1174.730469	77.793823
1173.027344	66.037338
1171.322266	45.482731
1169.619141	51.340565
1167.914063	60.129032
1166.208984	49.852512
1164.503906	64.501312
1162.796875	49.831337
1161.091797	61.543282
1159.384766	57.135193
1157.677734	51.264278
1155.970703	46.860241
1154.263672	54.170639
1152.554688	40.985287
1150.847656	52.684170
1149.138672	54.136108
1147.429688	76.067009
1145.720703	42.412968
1144.009766	57.026001
1142.300781	38.009251
1140.589844	65.771255
1138.878906	75.986176
1137.167969	67.204247
1135.455078	83.257111
1133.744141	43.810211
1132.031250	51.101040
1130.318359	49.630451
1128.605469	37.944622
1126.892578	64.200310
1125.179688	53.975140
1123.464844	40.837357
1121.750000	56.868500
1120.035156	61.229961
1118.320313	43.726379
1116.605469	55.374954
1114.888672	34.966209
1113.171875	45.155071
1111.455078	49.514370
1109.738281	45.135841
1108.021484	75.695602
1106.302734	64.036484
1104.585938	78.573494
1102.867188	62.554451
1101.148438	63.995567
1099.429688	66.890205
1097.708984	52.337700
1095.990234	58.140606
1094.269531	43.596161
1092.548828	40.681076
1090.828125	65.366364
1089.105469	68.256981
1087.384766	56.626698
1085.662109	39.194740
1083.939453	55.151203
1082.216797	58.041519
1080.492188	62.381325
1078.769531	52.215088
1077.044922	46.403511
1075.320313	39.144608
1073.595703	43.484730
1071.871094	55.068905
1070.146484	57.954899
1068.419922	43.456898
1066.693359	68.067947
1064.966797	49.230133
1063.240234	68.038895
1061.513672	60.787731
1059.785156	47.751591
1058.056641	41.954559
1056.328125	67.980804
1054.599609	60.735832
1052.871094	47.710819
1051.140625	30.354944
1049.412109	47.690437
1047.681641	53.459675
1045.951172	52.003708
1044.218750	59.213791
1042.488281	62.088997
1040.755859	54.857620
1039.023438	54.845898
1037.291016	30.303097
1035.558594	44.723579
1033.826172	38.944469
1032.091797	46.146542
1030.357422	43.253132
1028.623047	80.721916
1026.888672	37.470016
1025.154297	43.225391
1023.417969	46.097221
1021.681641	51.848282
1019.945313	24.478674
1018.208984	69.101463
1016.472656	48.936401
1014.734375	60.437912
1012.998047	30.212490
1011.259766	50.343372
1009.521484	41.704151
1007.783203	56.072891
1006.042969	64.685638
1004.302734	50.300282
1002.564453	50.289513
1000.824219	44.532604
999.082031	56.012890
997.341797	31.590248
995.599609	60.295738
993.859375	60.282825
992.117188	66.009903
990.373047	65.995758
988.630859	27.253279
986.886719	61.665257
985.144531	61.652042
983.400391	60.205368
981.656250	63.058773
979.910156	47.283943
978.166016	55.869045
976.419922	67.314926
974.673828	57.277020
972.927734	54.401501
971.181641	71.565575
969.433594	62.964199
967.687500	51.505112
965.939453	41.481331
964.191406	42.902515
962.441406	42.893314
960.693359	54.319874
958.943359	74.316505
957.195313	48.581135
955.445313	67.141861
953.693359	51.416775
951.943359	58.545425
950.191406	67.098640
948.441406	45.674374
946.689453	68.496849
944.935547	42.801338
943.183594	57.056198
941.431641	61.322243
939.677734	44.199562
937.923828	52.742985
936.169922	71.258995
934.414063	48.445709
932.660156	61.256409
930.904297	71.213074
929.148438	68.349861
927.392578	74.029770
925.636719	74.013863
923.878906	44.114166
922.123047	64.022926
920.365234	66.854012
918.607422	63.995403
916.849609	63.981644
915.089844	45.488274
913.330078	61.111721
911.572266	72.465759
909.812500	62.506031
908.050781	63.912868
906.291016	46.859356
904.529297	44.009926
902.767578	62.452259
901.005859	78.048523
899.244141	72.356697
897.482422	69.504211
895.718750	32.617405
893.957031	77.981354
892.193359	48.196278
890.427734	51.020367
888.664063	66.595581
886.898438	50.998398
885.134766	56.652683
883.369141	42.480362
881.603516	52.381161
879.835938	48.123672
878.070313	50.943501
876.302734	59.421276
874.535156	65.066422
872.767578	66.466583
871.000000	53.727360
869.230469	73.505806
867.460938	40.984787
865.693359	48.040771
863.921875	46.617756
862.152344	60.731255
860.382813	50.833809
858.611328	21.176186
856.839844	52.223328
855.068359	53.623203
853.296875	56.433300
851.523438	26.800035
849.751953	50.768063
847.978516	46.527348
846.205078	59.203850
844.431641	60.600388
842.656250	61.996315
840.880859	39.443687
839.107422	54.927563
837.332031	45.059040
835.554688	71.797340
833.779297	50.669537
832.001953	63.323246
830.226563	45.020138
828.447266	52.043297
826.669922	66.094772
824.892578	37.961136
823.113281	59.037903
821.333984	40.755459
819.554688	54.797226
817.775391	49.166370
815.996094	46.346848
814.214844	33.699512
812.435547	46.326817
810.654297	50.527424
808.871094	49.113262
807.089844	47.699715
805.306641	57.507809
803.525391	85.541901
801.742188	79.915306
799.958984	63.077389
798.173828	64.465164
796.390625	47.637859
794.605469	54.631607
792.820313	57.420803
791.035156	37.805519
789.248047	55.996056
787.462891	50.385544
785.675781	37.780983
783.888672	82.540573
782.101563	57.346287
780.314453	44.748390
778.525391	64.311882
776.736328	58.706833
774.947266	43.321854
773.158203	51.695530
771.369141	58.668705
769.578125	60.052570
767.789063	74.002251
765.998047	48.858826
764.207031	58.617889
762.414063	36.279404
760.623047	50.222137
758.830078	48.816494
757.037109	54.383736
755.244141	57.160255
753.451172	47.390911
751.656250	40.412899
749.863281	43.190628
748.068359	47.360096
746.271484	51.527756
744.476563	57.085941
742.681641	58.465599
740.884766	33.401669
739.087891	44.525898
737.291016	50.080769
735.494141	58.414886
733.695313	50.059040
731.896484	52.828632
730.097656	54.207096
728.298828	44.467964
726.500000	37.511700
724.701172	61.116913
722.900391	66.658524
721.099609	51.371456
719.298828	73.570160
717.496094	48.573521
715.695313	58.275566
713.892578	67.973396
712.089844	38.833504
710.287109	26.345583
708.484375	56.838646
706.679688	31.878166
704.876953	52.656830
703.072266	51.259987
701.267578	49.863743
699.460938	58.161724
697.656250	53.995575
695.849609	40.141830
694.042969	40.133102
692.236328	20.753988
690.429688	67.781624
688.621094	42.872925
686.812500	48.394390
685.005859	44.236679
683.195313	51.137535
681.386719	33.163078
679.578125	45.589310
677.767578	55.247749
675.957031	44.188583
674.146484	42.798374
672.333984	53.831398
670.523438	82.799515
668.710938	28.973522
666.898438	20.690868
665.085938	49.647274
663.273438	37.227348
661.458984	74.438484
659.644531	28.941998
657.830078	34.447254
656.015625	30.306982
654.201172	55.091602
652.384766	35.801743
650.570313	37.170631
648.753906	45.420876
646.935547	52.291428
645.119141	33.018970
643.300781	52.268642
641.484375	61.883587
639.666016	52.245861
637.847656	39.863148
636.027344	49.474499
634.208984	54.959682
632.388672	56.321392
630.568359	42.575180
628.748047	43.938988
626.925781	34.319847
625.105469	64.507240
623.283203	38.421463
621.460938	57.619621
619.636719	45.262684
617.814453	39.767616
615.990234	63.065903
614.167969	17.819084
612.343750	60.297581
610.517578	36.992710
608.693359	24.656424
606.867188	42.454571
605.041016	64.352554
603.214844	47.911652
601.388672	54.744217
599.562500	46.522423
597.734375	36.936207
595.906250	54.708355
594.078125	51.961582
592.250000	45.114674
590.419922	31.436691
588.591797	47.827988
586.761719	38.254028
584.931641	38.245670
583.099609	58.721584
581.269531	43.690231
579.437500	34.125530
577.605469	57.318359
575.773438	36.839458
573.941406	57.293297
572.107422	34.095695
570.273438	59.995296
568.439453	42.260170
566.605469	38.162125
564.771484	51.780125
562.935547	53.131134
561.101563	64.015816
559.265625	57.193108
557.427734	28.590296
555.591797	46.278919
553.753906	76.207420
551.917969	65.306343
550.080078	55.770290
548.240234	36.718735
546.402344	44.868629
544.562500	58.452381
542.724609	66.593941
540.884766	54.350494
539.042969	46.187801
537.203125	54.326687
535.361328	46.167564
533.519531	47.515022
531.677734	52.933708
529.835938	78.704674
527.994141	65.120628
526.150391	42.047855
524.306641	46.106895
522.462891	42.029423
520.619141	35.242756
518.773438	39.300610
516.927734	51.486057
515.082031	63.666161
513.236328	67.715103
511.390625	47.390175
509.542969	41.964947
507.697266	41.955742
505.849609	48.712109
504.000000	43.290150
502.152344	29.755449
500.302734	48.680050
498.455078	40.557804
496.605469	51.361942
494.753906	63.512669
492.904297	56.743542
491.052734	52.678864
489.203125	49.966408
487.351563	29.703234
485.498047	47.244766
483.646484	41.836174
481.792969	37.779213
479.939453	59.354290
478.085938	57.992588
476.232422	63.373318
474.376953	32.353733
472.523438	37.737728
470.667969	22.907156
468.812500	53.887344
466.955078	40.406624
465.099609	47.130699
463.242188	36.349976
461.384766	53.839973
459.527344	55.173840
457.667969	56.507114
455.810547	73.981140
453.951172	36.310024
452.091797	51.091755
450.232422	60.490086
448.371094	61.820705
446.511719	68.525269
444.650391	36.270100
442.789063	63.122948
440.927734	49.681595
439.064453	46.985760
437.201172	57.712654
435.337891	65.751106
433.474609	44.271606
431.611328	40.238056
429.748047	59.002819
427.882813	54.967789
426.017578	36.190327
424.152344	50.923317
422.285156	50.912098
420.419922	60.277363
418.552734	49.550465
416.685547	68.284241
414.818359	38.819736
412.949219	61.562565
411.082031	54.858891
409.212891	45.482708
407.343750	52.159843
405.472656	57.496891
403.603516	57.484215
401.732422	57.471539
399.861328	62.803875
397.990234	60.118107
396.119141	61.440510
394.246094	60.091587
392.375000	37.382072
390.501953	24.026031
388.628906	49.375946
386.753906	68.043716
384.880859	40.016884
383.005859	52.010464
381.130859	34.665989
379.253906	58.652573
377.378906	66.635933
375.501953	73.283348
373.626953	57.281601
371.748047	61.264462
369.871094	59.919388
367.994141	47.924923
366.115234	45.252430
364.236328	54.557053
362.357422	57.205730
360.478516	62.513378
358.597656	67.818680
356.716797	62.485752
354.835938	46.521660
352.955078	54.484756
351.074219	75.730354
349.191406	62.430523
347.308594	58.432674
345.425781	69.041527
343.542969	57.079411
341.658203	74.319534
339.775391	55.727325
337.890625	86.225594
336.005859	61.007690
334.119141	49.060547
332.234375	41.095688
330.347656	74.220947
328.460938	54.328308
326.574219	54.316284
324.685547	54.304264
322.798828	58.264847
320.910156	62.223671
319.021484	39.708447
317.132813	66.166092
315.242188	52.921150
313.351563	68.782257
311.460938	56.865040
309.570313	56.852444
307.679688	59.483566
305.787109	77.972290
303.896484	46.244499
302.003906	66.048935
300.111328	87.165268
298.216797	51.495335
296.322266	75.245735
294.429688	72.589439
292.535156	69.934319
290.638672	52.768917
288.744141	67.265450
286.847656	64.613258
284.951172	73.827347
283.054688	64.584602
281.158203	76.430130
279.259766	55.333675
277.361328	65.858810
275.462891	67.161087
273.564453	39.497753
271.666016	61.866085
269.765625	44.744259
267.865234	57.891483
265.964844	53.932362
264.064453	53.920391
262.162109	36.815506
260.261719	46.009167
258.359375	49.941715
256.457031	44.674770
254.552734	61.742584
252.650391	64.355637
250.746094	64.341339
248.841797	52.511875
246.937500	52.500206
245.031250	36.741982
243.126953	60.348412
241.220703	38.037285
239.314453	49.830879
237.406250	53.752945
235.500000	49.808731
233.591797	49.797657
231.683594	78.610397
229.775391	56.324924
227.865234	86.432991
225.957031	54.990578
224.046875	43.197273
222.136719	74.596878
220.226563	57.570744
218.314453	47.092857
216.402344	49.698067
214.490234	74.530510
212.578125	60.134048
210.666016	57.506721
208.751953	53.573883
206.839844	67.932236
204.925781	44.407345
203.009766	50.926495
201.095703	65.275841
